thisRow.t,notes,trial,digit,responded,correct,response_time,
,,0,7,True,True,63.91006429999834,
,,1,5,True,True,64.73994090000633,
,,2,1,True,True,65.48855219999678,
,,3,6,True,True,66.48954579999554,
,,4,6,True,True,67.3674702999997,
,,5,3,True,False,68.25798960000975,
,,6,8,True,True,69.37389700001222,
,,7,1,True,True,70.26155369999469,
,,8,6,True,True,71.14467599999625,
,,9,9,True,True,72.00516329999664,
,,10,1,True,True,72.85568139998941,
,,11,5,True,True,73.83774270000868,
,,12,3,True,False,74.75964129998465,
,,13,4,True,True,75.83261919999495,
,,14,6,True,True,76.90800820000004,
,,15,2,True,True,77.85607119998895,
,,16,8,True,True,78.80805809999583,
,,17,8,True,True,79.70153620000929,
,,18,1,True,True,80.5828508999839,
,,19,7,True,True,81.54569840000477,
,,20,8,True,True,82.39547540000058,
,,21,6,True,True,83.36051199998474,
,,22,6,True,True,84.36232759998529,
,,23,8,True,True,85.23308740000357,
,,24,8,True,True,86.06873830000404,
,,25,7,True,True,86.85232259999611,
,,26,7,True,True,87.74727900000289,
,,27,1,True,True,88.64178360000369,
,,28,9,True,True,89.57338509999681,
,,29,2,True,True,90.45569410000462,
,,30,1,True,True,91.34158700000262,
,,31,8,True,True,92.18322979999357,
,,32,5,True,True,93.0693859999883,
,,33,8,True,True,93.97215369998594,
,,34,9,True,True,94.97645789998933,
,,35,2,True,True,95.83946499999729,
,,36,9,True,True,96.77525929998956,
,,37,6,True,True,97.60612390001188,
,,38,4,True,True,98.38848090000101,
,,39,2,True,True,99.26012719998835,
,,40,2,True,True,100.10132270000759,
,,41,8,True,True,101.04668699999456,
,,42,0,True,True,101.89902909999364,
,,43,7,True,True,102.90474969998468,
,,44,8,True,True,103.75747260000207,
,,45,7,True,True,104.65429000000586,
,,46,9,True,True,105.45482039998751,
,,47,3,True,False,106.31675989998621,
,,48,0,True,True,107.19022349998704,
,,49,4,True,True,108.1143497999874,
,,50,9,True,True,109.05619159998605,
,,51,8,True,True,109.9477615999931,
,,52,9,True,True,110.72397490000003,
,,53,9,True,True,111.57734530000016,
,,54,0,True,True,112.45057469999301,
,,55,0,True,True,113.39544689998729,
,,56,6,True,True,114.320948699984,
,,57,6,True,True,115.26875640000799,
,,58,9,True,True,116.1204327000014,
,,59,0,True,True,117.0178811000078,
,,60,5,True,True,117.85711370001081,
,,61,0,True,True,118.71888579998631,
,,62,4,True,True,119.74958269999479,
,,63,1,False,False,,
,,64,7,True,True,121.08415350000723,
,,65,2,True,True,122.52167409998947,
,,66,1,True,True,123.37698010000167,
,,67,6,True,True,124.32684779999545,
,,68,8,True,True,125.24063270000624,
,,69,0,True,True,126.23423110001022,
,,70,6,True,True,127.14965159998974,
,,71,9,True,True,128.10016659999383,
,,72,5,True,True,129.0780434999906,
,,73,9,True,True,129.98154700000305,
,,74,2,True,True,130.93428909999784,
,,75,7,True,True,131.80556780000916,
,,76,3,True,False,132.73865630000364,
,,77,1,True,True,133.63778660001117,
,,78,3,False,True,,
,,79,0,False,False,,
,,80,7,False,False,,
,,81,1,False,False,,
,,82,3,False,True,,
,,83,6,False,False,,
,,84,1,False,False,,
,,85,9,False,False,,
,,86,5,False,False,,
,,87,1,False,False,,
,,88,8,False,False,,
,,89,3,False,True,,
